Folder: dbdb/data/galukhin2019lang

Note: Readme.md
[![Build status](https://dev.azure.com/supatfs/dbdb/_apis/build/status/dbdb-Python%20package-CI)](https://dev.azure.com/supatfs/dbdb/_build/latest?definitionId=1) [!["THE SUSHI-WARE LICENSE"](https://img.shields.io/badge/license-SUSHI--WARE%F0%9F%8D%A3-blue.svg)](https://github.com/MakeNowJust/sushi-ware)

This repository provides source code for Maximov MA, Galukhin AV, and Gor GY, "Pore Size Distribution of Silica Colloidal Crystals from Nitrogen Adsorption Isotherms", Langmuir 2019 (accepted)

In short, it generates a kernel of adsorption and desorption isotherms using Frenkel-Halsey-Hill and Derjaguin-Broekhoff-de Boer theories and extracts the pore size distribution using Non-Negative Least Squares regression with Tikhonov (ridge) regularization and Generalized Cross-validation.

![alt text](https://github.com/2xmax/dbdb_private/blob/docs/docs/TOC.png?raw=true "Logo Title Text 1")

Quick start
===========
To run examples from docs, run ```pip install . && pip install -r requirements.docs.txt && jupyter notebook``` in terminal/cmd and open the notebooks in your browser. Python 3.5+ is required for the source code, 3.6+ is required for the notebooks with examples.

To install the package without cloning the project, run ```pip install dbdb```

Description of notebooks:
 - [psd_n2.ipynb](/docs/psd_n2.ipynb) - quick introduction based on the article data
- [maximov2019lang_figures.ipynb](/docs/maximov2019lang_figures.ipynb) - reproduced pictures from the current article
- [galukhin2019lang_figures.ipynb](/docs/galukhin2019lang_figures.ipynb) - reproduced pictures from the [previous article](https://doi.org/10.1021/acs.langmuir.8b03476) in series
- [psd_arc.psd](/docs/psd_n2.ipynb) - application of FHH and DBdB theories on data from [Cychosz, Katie A., et al., Langmuir 28.34 (2012): 12647-12654.](https://doi.org/10.1021/la302362h)

BibTeX citation:
===============
```
@article{maximov2019opals,
  title={Pore Size Distribution of Silica Colloidal Crystals from Nitrogen Adsorption Isotherms},
  author={Maximov, Max A and Galukhin, Andrey V and Gor, Gennady Y},
  journal={Langmuir},
  pages={accepted},
  year={2019},
  publisher={ACS Publications}
}
```

File: DBdB-sphere-ads-sample1.csv
p/p0,relative_adsorption
3.0249e-21,0.00854696
0.166126,0.0310777
0.624142,0.0532645
0.810267,0.07511
0.884401,0.0966168
0.918808,0.117788
0.93687,0.138625
0.94725,0.159132
0.953624,0.17931
0.957736,0.199164
0.960487,0.218694
0.962374,0.237904
0.963691,0.256797
0.964617,0.275375
0.965267,0.293641
0.965716,0.311597
0.966016,0.329246
0.966203,0.346591
0.966302,0.363635
0.966331,0.380379
0.966331,0.380379
0.966331,0.473155
0.966331,0.556175
0.966331,0.62998
0.966331,0.695113
0.966331,0.752115
0.966331,0.80153
0.966331,0.843898
0.966331,0.879762
0.966331,0.909663
0.966331,0.934144
0.966331,0.953747
0.966331,0.969014
0.966331,0.980487
0.966331,0.988708
0.966331,0.994218
0.966331,0.997561
0.966331,0.999277
0.966331,0.99991
0.966331,1.0
0.966331,1.0
0.970072,1.0
0.973813,1.0
0.977554,1.0
0.981295,1.0
0.985036,1.0
0.988777,1.0
0.992518,1.0
0.996259,1.0
1.0,1.0

File: DBdB-sphere-ads-sample2.csv
p/p0,relative_adsorption
3.00774e-21,0.0103092
0.109087,0.0344684
0.548369,0.0582313
0.763019,0.081601
0.853959,0.104581
0.897327,0.127174
0.920428,0.149384
0.933821,0.171214
0.942095,0.192668
0.947455,0.213747
0.951052,0.234457
0.953527,0.2548
0.955257,0.274779
0.956476,0.294398
0.957332,0.31366
0.957925,0.332568
0.958322,0.351125
0.958569,0.369336
0.958701,0.387202
0.95874,0.404728
0.95874,0.404728
0.95874,0.493858
0.95874,0.573615
0.95874,0.64452
0.95874,0.707094
0.95874,0.761856
0.95874,0.809329
0.95874,0.850032
0.95874,0.884486
0.95874,0.913213
0.95874,0.936732
0.95874,0.955565
0.95874,0.970232
0.95874,0.981254
0.95874,0.989152
0.95874,0.994446
0.95874,0.997657
0.95874,0.999306
0.95874,0.999913
0.95874,1.0
0.95874,1.0
0.963325,1.0
0.967909,1.0
0.972494,1.0
0.977078,1.0
0.981662,1.0
0.986247,1.0
0.990831,1.0
0.995416,1.0
1.0,1.0